trial_num,expression,expr_onset,expr_dura,expr_offset,choice,choi_onset,choi_dura,choi_offset,blank,blank_onset,blank_offset,blank_dura,correct_ans,i_trial_onset,trial_onset,choice_onset,blank_r_onset,RT,correct,KeyPress
1,4  +  2,0,1.45,1.45,8        6,1.45,1.45,2.9, ,2.9,3,0.1,2,15.0,14.996701199999961,16.441306499999882,17.891509099999894,1.0339313000001766,True,2
2,2  +  5,3,1.45,4.45,5        7,4.45,1.45,5.9, ,5.9,6,0.1,2,18.0,17.994494099999883,19.439063799999985,20.889085999999907,0.5788215000000037,False,1
3,1  +  7,6,1.45,7.45,8        6,7.45,1.45,8.9, ,8.9,9,0.1,1,21.0,20.994237599999906,22.438459299999977,23.888547100000096,0.5927050000000236,False,2
4,6  +  4,9,1.45,10.45,8        10,10.45,1.45,11.9, ,11.9,12,0.1,2,24.0,23.994122600000082,25.438150199999882,26.888453000000027,0.6552996000000348,False,1
5,1  +  2,12,1.45,13.45,1        3,13.45,1.45,14.9, ,14.9,15,0.1,2,27.0,26.994102200000043,28.438668600000028,29.888966799999935,0.7576828999999634,False,1
6,17  +  7,15,1.45,16.45,24        22,16.45,1.45,17.9, ,17.9,18,0.1,1,30.0,29.99469010000007,31.438965499999995,32.88915799999995,0.7099803999999494,False,2
7,18  +  6,18,1.45,19.45,26        24,19.45,1.45,20.9, ,20.9,21,0.1,2,33.0,32.99418999999989,34.43834930000003,35.888390800000025,0.6785992000000078,False,1
8,19  +  6,21,1.45,22.45,27        25,22.45,1.45,23.9, ,23.9,24,0.1,2,36.0,35.99418330000003,37.43878219999988,38.888889099999915,0.5605067000001327,False,1
9,16  +  9,24,1.45,25.45,25        23,25.45,1.45,26.9, ,26.9,27,0.1,1,39.0,38.994385299999976,40.438732500000015,41.88949899999989,0.7141251999998985,False,2
10,17  +  9,27,1.45,28.45,26        28,28.45,1.45,29.9, ,29.9,30,0.1,1,42.0,41.9945052999999,43.43864020000001,44.88902189999999,0.9408943000000818,True,1
11,16  +  7,30,1.45,31.45,21        23,31.45,1.45,32.9, ,32.9,33,0.1,2,45.0,44.99421600000005,46.43814120000002,47.890961800000014,None,False,None
12,15  +  7,33,1.45,34.45,22        20,34.45,1.45,35.9, ,35.9,36,0.1,1,48.0,47.994118800000024,49.438577399999986,50.88839660000008,0.7667776999999205,False,2
13,19  +  5,36,1.45,37.45,22        24,37.45,1.45,38.9, ,38.9,39,0.1,2,51.0,50.9946496,52.438711999999896,53.88921860000005,1.1081035000001975,True,2
14,16  +  8,39,1.45,40.45,22        24,40.45,1.45,41.9, ,41.9,42,0.1,2,54.0,53.994102800000064,55.43817889999991,56.88840469999991,1.03566590000014,False,1
15,17  +  4,42,1.45,43.45,23        21,43.45,1.45,44.9, ,44.9,45,0.1,2,57.0,56.994029400000045,58.43946249999999,59.88862859999995,0.966128499999968,False,1
16,3  +  1,45,1.45,46.45,4        6,46.45,1.45,47.9, ,47.9,48,0.1,1,60.0,59.99444459999995,61.438769299999876,62.88956269999994,0.48475470000016685,False,2
17,6  +  2,48,1.45,49.45,8        10,49.45,1.45,50.9, ,50.9,51,0.1,1,63.0,62.99465729999997,64.43917220000003,65.88939499999992,0.6642022999999426,False,2
18,4  +  2,51,1.45,52.45,6        4,52.45,1.45,53.9, ,53.9,54,0.1,1,66.0,65.9944015000001,67.43872009999995,68.8889087,0.6408658000000287,False,2
19,3  +  7,54,1.45,55.45,10        12,55.45,1.45,56.9, ,56.9,57,0.1,1,69.0,68.994011,70.4380384000001,71.888461,0.5597312999998394,False,2
20,1  +  8,57,1.45,58.45,11        9,58.45,1.45,59.9, ,59.9,60,0.1,2,72.0,71.99414200000001,73.43817590000003,74.88845609999998,0.6574279999999817,False,1
21,5  +  3,75,1.45,76.45,6        8,76.45,1.45,77.9, ,77.9,78,0.1,2,90.0,90.00385789999996,91.44827069999997,92.89833470000008,0.6066728999999214,False,1
22,1  +  6,78,1.45,79.45,7        9,79.45,1.45,80.9, ,80.9,81,0.1,1,93.0,92.99476570000002,94.43902550000007,95.88941030000001,0.614302399999815,False,2
23,2  +  2,81,1.45,82.45,2        4,82.45,1.45,83.9, ,83.9,84,0.1,2,96.0,95.99397479999993,97.43828759999997,98.8882814000001,0.6523285999999189,False,1
24,4  +  3,84,1.45,85.45,5        7,85.45,1.45,86.9, ,86.9,87,0.1,2,99.0,98.99399769999991,100.43818779999992,101.88819409999996,0.6125194000001102,False,1
25,2  +  8,87,1.45,88.45,12        10,88.45,1.45,89.9, ,89.9,90,0.1,2,102.0,101.99402630000009,103.43813399999999,104.88825150000002,1.1865903000000344,False,1
26,16  +  5,90,1.45,91.45,21        19,91.45,1.45,92.9, ,92.9,93,0.1,1,105.0,104.99403559999996,106.4380690999999,107.89095879999991,None,False,None
27,18  +  7,93,1.45,94.45,27        25,94.45,1.45,95.9, ,95.9,96,0.1,2,108.0,107.99415350000004,109.4390727,110.88847729999998,0.6078921000000719,False,1
28,19  +  2,96,1.45,97.45,21        23,97.45,1.45,98.9, ,98.9,99,0.1,1,111.0,110.99432069999989,112.43859470000007,113.88878670000008,0.6305669999999282,False,2
29,19  +  6,99,1.45,100.45,25        23,100.45,1.45,101.9, ,101.9,102,0.1,1,114.0,113.99433550000003,115.43850029999999,116.888508,0.5079571999999644,False,2
30,19  +  7,102,1.45,103.45,24        26,103.45,1.45,104.9, ,104.9,105,0.1,2,117.0,116.99452569999994,118.43858010000008,119.88882330000001,0.7459562999999889,False,1
31,1  +  1,105,1.45,106.45,2        0,106.45,1.45,107.9, ,107.9,108,0.1,1,120.0,119.99448869999992,121.43848150000008,122.88880399999994,0.4472815999999966,False,2
32,5  +  4,108,1.45,109.45,7        9,109.45,1.45,110.9, ,110.9,111,0.1,2,123.0,122.99399369999992,124.43806889999996,125.88821839999991,0.4995828999999503,False,1
33,5  +  5,111,1.45,112.45,10        8,112.45,1.45,113.9, ,113.9,114,0.1,1,126.0,125.99402759999998,127.4383714999999,128.88845100000003,0.4185335000001942,False,2
34,3  +  3,114,1.45,115.45,6        8,115.45,1.45,116.9, ,116.9,117,0.1,1,129.0,128.9940908000001,130.43840640000008,131.8890378000001,0.7567239999998492,False,2
35,5  +  3,117,1.45,118.45,8        10,118.45,1.45,119.9, ,119.9,120,0.1,1,132.0,131.9940203000001,133.43836850000002,134.88870659999998,0.7780304000000342,False,2
36,15  +  8,120,1.45,121.45,21        23,121.45,1.45,122.9, ,122.9,123,0.1,2,135.0,134.99460049999993,136.43874699999992,137.88951629999997,0.5884825000000546,False,1
37,17  +  6,123,1.45,124.45,23        25,124.45,1.45,125.9, ,125.9,126,0.1,1,138.0,137.9945878000001,139.43927929999995,140.88916399999994,0.7721837000001415,False,2
38,19  +  8,126,1.45,127.45,25        27,127.45,1.45,128.9, ,128.9,129,0.1,2,141.0,140.99414810000007,142.4381808999999,143.8883897999999,1.2455187000000478,False,1
39,13  +  8,129,1.45,130.45,21        23,130.45,1.45,131.9, ,131.9,132,0.1,1,144.0,143.99405359999992,145.43815760000007,146.8883628000001,0.7219827999999779,False,2
40,18  +  8,132,1.45,133.45,26        24,133.45,1.45,134.9, ,134.9,135,0.1,1,147.0,146.99396410000008,148.43799080000008,149.8885769000001,0.9591412999998283,False,2
41,19  +  9,150,1.45,151.45,30        28,151.45,1.45,152.9, ,152.9,153,0.1,2,165.0,165.0047580999999,166.44940539999993,167.8990389999999,0.6535221000001457,False,1
42,17  +  8,153,1.45,154.45,27        25,154.45,1.45,155.9, ,155.9,156,0.1,2,168.0,167.99425189999988,169.4386027999999,170.8884375,0.7398615000001882,False,1
43,17  +  5,156,1.45,157.45,22        20,157.45,1.45,158.9, ,158.9,159,0.1,1,171.0,170.9939832,172.43820269999992,173.8883292999999,0.5302080000001297,False,2
44,18  +  5,159,1.45,160.45,21        23,160.45,1.45,161.9, ,161.9,162,0.1,2,174.0,173.99400719999994,175.4380599000001,176.8881695,1.3173826999998255,False,1
45,15  +  9,162,1.45,163.45,24        26,163.45,1.45,164.9, ,164.9,165,0.1,1,177.0,176.99400859999992,178.4380713999999,179.8882782999999,1.202772300000106,True,1
46,6  +  3,165,1.45,166.45,11        9,166.45,1.45,167.9, ,167.9,168,0.1,2,180.0,179.9943963999999,181.43868240000006,182.88866389999998,0.7125051999998959,False,1
47,4  +  6,168,1.45,169.45,10        8,169.45,1.45,170.9, ,170.9,171,0.1,1,183.0,182.99428809999995,184.4386634,185.88920770000004,0.7660805000000437,False,2
48,4  +  3,171,1.45,172.45,9        7,172.45,1.45,173.9, ,173.9,174,0.1,2,186.0,185.99441739999997,187.4385640999999,188.8892894999999,0.5226708000000144,False,1
49,6  +  1,174,1.45,175.45,5        7,175.45,1.45,176.9, ,176.9,177,0.1,2,189.0,188.99420869999994,190.43842670000004,191.8887893000001,0.7477389000000585,False,1
50,4  +  4,177,1.45,178.45,10        8,178.45,1.45,179.9, ,179.9,180,0.1,2,192.0,191.99415670000008,193.43815489999997,194.88840589999995,1.2308029999999235,False,1
51,18  +  6,180,1.45,181.45,24        22,181.45,1.45,182.9, ,182.9,183,0.1,1,195.0,194.9938979000001,196.43825779999997,197.88832610000009,0.584523900000022,False,2
52,12  +  9,183,1.45,184.45,21        23,184.45,1.45,185.9, ,185.9,186,0.1,1,198.0,197.9940623,199.4383511000001,200.8882678,0.8713017999998556,False,2
53,14  +  8,186,1.45,187.45,24        22,187.45,1.45,188.9, ,188.9,189,0.1,2,201.0,200.99404839999988,202.43835599999989,203.88808840000002,1.401392900000019,False,1
54,15  +  6,189,1.45,190.45,21        23,190.45,1.45,191.9, ,191.9,192,0.1,1,204.0,203.9942418999999,205.43853990000002,206.88869109999996,0.45118890000003375,False,2
55,18  +  9,192,1.45,193.45,27        25,193.45,1.45,194.9, ,194.9,195,0.1,1,207.0,206.9941185,208.43853820000004,209.8887482,0.7460115999999744,False,2
56,1  +  8,195,1.45,196.45,11        9,196.45,1.45,197.9, ,197.9,198,0.1,2,210.0,209.9941641999999,211.43870289999995,212.88842169999998,0.5848455000000286,False,1
57,3  +  2,198,1.45,199.45,7        5,199.45,1.45,200.9, ,200.9,201,0.1,2,213.0,212.99436149999997,214.43872429999988,215.88855089999993,0.6184257000002162,False,1
58,7  +  2,201,1.45,202.45,9        7,202.45,1.45,203.9, ,203.9,204,0.1,1,216.0,215.9942097999999,217.43825779999997,218.88872029999993,0.5437931999999819,False,2
59,4  +  1,204,1.45,205.45,5        3,205.45,1.45,206.9, ,206.9,207,0.1,1,219.0,218.9943267000001,220.4387944,221.88904150000008,0.7124037999999473,False,2
60,1  +  3,207,1.45,208.45,2        4,208.45,1.45,209.9, ,209.9,210,0.1,2,222.0,221.99435960000005,223.43922580000003,224.88862199999994,0.4595729999998639,False,1
61,19  +  3,225,1.45,226.45,22        24,226.45,1.45,227.9, ,227.9,228,0.1,1,240.0,240.00289079999993,241.4474052999999,242.90060620000008,None,False,None
62,14  +  9,228,1.45,229.45,23        25,229.45,1.45,230.9, ,230.9,231,0.1,1,243.0,242.99392609999995,244.43800869999995,245.89086730000008,None,False,None
63,19  +  4,231,1.45,232.45,23        25,232.45,1.45,233.9, ,233.9,234,0.1,1,246.0,245.99416330000008,247.43834650000008,248.89118710000002,None,False,None
64,17  +  9,234,1.45,235.45,24        26,235.45,1.45,236.9, ,236.9,237,0.1,2,249.0,248.99402439999994,250.4380839999999,251.89084129999992,None,False,None
65,16  +  6,237,1.45,238.45,20        22,238.45,1.45,239.9, ,239.9,240,0.1,2,252.0,251.9941699000001,253.4386887999999,254.89193369999998,None,False,None
66,3  +  6,240,1.45,241.45,11        9,241.45,1.45,242.9, ,242.9,243,0.1,2,255.0,254.9946156000001,256.4390931999999,257.8925933999999,None,False,None
67,5  +  2,243,1.45,244.45,7        9,244.45,1.45,245.9, ,245.9,246,0.1,1,258.0,257.99450649999994,259.43876290000003,260.8920399000001,None,False,None
68,4  +  5,246,1.45,247.45,9        7,247.45,1.45,248.9, ,248.9,249,0.1,1,261.0,260.9939661000001,262.4379971999999,263.8908523,None,False,None
69,7  +  3,249,1.45,250.45,12        10,250.45,1.45,251.9, ,251.9,252,0.1,2,264.0,263.9939922000001,265.4381685000001,266.8912763000001,None,False,None
70,1  +  9,252,1.45,253.45,8        10,253.45,1.45,254.9, ,254.9,255,0.1,2,267.0,266.9939546999999,268.43813150000005,269.8909707,None,False,None
71,7  +  1,255,1.45,256.45,8        6,256.45,1.45,257.9, ,257.9,258,0.1,1,270.0,269.99399059999996,271.4380469,272.8912018000001,None,False,None
72,3  +  2,258,1.45,259.45,5        7,259.45,1.45,260.9, ,260.9,261,0.1,1,273.0,272.9941604999999,274.43818970000007,275.89101789999995,None,False,None
73,1  +  5,261,1.45,262.45,6        4,262.45,1.45,263.9, ,263.9,264,0.1,1,276.0,275.99403299999994,277.43803619999994,278.89117450000003,None,False,None
74,1  +  4,264,1.45,265.45,5        7,265.45,1.45,266.9, ,266.9,267,0.1,1,279.0,278.9942708000001,280.4386939000001,281.89200860000005,None,False,None
75,1  +  5,267,1.45,268.45,6        8,268.45,1.45,269.9, ,269.9,270,0.1,1,282.0,281.9944283,283.43875720000005,284.89186700000005,None,False,None
76,14  +  7,270,1.45,271.45,23        21,271.45,1.45,272.9, ,272.9,273,0.1,2,285.0,284.99435760000006,286.43998039999997,287.8934191000001,None,False,None
77,18  +  3,273,1.45,274.45,23        21,274.45,1.45,275.9, ,275.9,276,0.1,2,288.0,287.99447770000006,289.43873869999993,290.8919664,None,False,None
78,17  +  7,276,1.45,277.45,22        24,277.45,1.45,278.9, ,278.9,279,0.1,2,291.0,290.99396939999997,292.43834259999994,293.89170050000007,None,False,None
79,13  +  9,279,1.45,280.45,24        22,280.45,1.45,281.9, ,281.9,282,0.1,2,294.0,293.9940574,295.4381020000001,296.8910605000001,None,False,None
80,18  +  4,282,1.45,283.45,22        20,283.45,1.45,284.9, ,284.9,285,0.1,1,297.0,296.9941767999999,298.43873469999994,299.89152319999994,None,False,None
